Folder: ELY-TimeSeries/LSTM/50um/1079714-2 (part 2)

File: G21-9800-CV-01 Plot-cv data-240622 025506.DTA
EXPLAIN
TAG	CV
TITLE	LABEL	Cyclic Voltammetry	Test &Identifier
DATE	LABEL	2024-06-22	Date
TIME	LABEL	2:55:06 AM	Time
NOTES	NOTES	1	&Notes...
	GI-CV	FCATS v19.0.1f5
PSTAT	PSTAT	REF3000-42167	Potentiostat
VINIT	POTEN	1.350000E+0	F	Initial &E (V)
VLIMIT1	POTEN	1.350000E+0	F	Scan Limit &1 (V)
VLIMIT2	POTEN	5.000000E-2	F	Scan Limit &2 (V)
VFINAL	POTEN	1.350000E+0	F	Final &E (V)
SCANRATE	QUANT	5.000000E-2	&Scan Rate (V/s)
STEPSIZE	QUANT	2	St&ep Size (V)
CYCLES	IQUANT	3	C&ycles (#)
IMODE	SELECTOR	1	I/E Range &Mode
IRANGE	QUANT	NaN	&Max Current (mA)
AREA	QUANT	5.000000E+1	Electrode &Area (cm^2)
ELECTRODETYPE	SELECTOR	0	Electrode Type
STRIPPING	TOGGLE	F	Used for Stripping
POLARITY	TOGGLE	F	Signal Polarity
CONDIT	TWOPARAM	F	0.00000E+000	0.00000E+000	Conditionin&g	Time(s)	E(V)
DELAY	TWOPARAM	0	0.000000E+0	0.00000E+000	Init. De&lay	Time(s)	Stab.(mV/s)
EQDELAY	QUANT	0.000000E+0	Equil. &Time (s)
IRCOMP	SELECTOR	0	IRCom&p
PFCOR	QUANT	0.00000E+000	PF Corr. (ohm)
SAMPLINGMODE	SELECTOR	Surface	Sampling &Mode
EOC	QUANT	0	Open Circuit (V)
PSTATMODEL	IQUANT	6.000000E+0	Pstat Model
PSTATSECTION	LABEL	REF3000-42167	Pstat Section
PSTATSERIALNO	LABEL	42167	Pstat Serial Number
CTRLMODE	IQUANT	0	Control Mode
IESTAB	IQUANT	2	I/E Stability
CASPEED	IQUANT	2	Control Amp Speed
CONVENTION	IQUANT	1	Current Convention
ICHRANGE	IQUANT	2	Ich Range
ICHRANGEMODE	TOGGLE	F	Ich Auto Range
ICHOFFSETENABLE	TOGGLE	F	Ich Offset Enable
ICHOFFSET	QUANT	0	Ich Offset (V)
ICHFILTER	IQUANT	3	Ich Filter
VCHRANGE	IQUANT	2	Vch Range
VCHRANGEMODE	TOGGLE	F	Vch Auto Range
VCHOFFSETENABLE	TOGGLE	F	Vch Offset Enable
VCHOFFSET	QUANT	0	Vch Offset (V)
VCHFILTER	IQUANT	3	Vch Filter
ACHRANGE	IQUANT	2	Ach Range
ACHOFFSETENABLE	TOGGLE	F	Ach Offset Enable
ACHOFFSET	QUANT	0	Ach Offset (V)
ACHFILTER	IQUANT	1	Ach Filter
IERANGELOWERLIMIT	IQUANT	2	I/E Range Lower Limit
IERANGEMODE	TOGGLE	F	I/E AutoRange
IERANGE	IQUANT	9	I/E Range
POSFEEDENABLE	TOGGLE	F	Positive Feedback IR Comp
POSFEEDRESISTANCE	QUANT	0	Positive Feedback Resistance (ohm)
ACHSELECT	IQUANT	0	Ach Select
CABLEID	IQUANT	14	Cable ID
DCCALDATE	LABEL	N/A	DC Calibration Date
ACCALDATE	LABEL	N/A	AC Calibration Date
THERMOSELECT	IQUANT	1	Thermo Select
FRAMEWORKVERSION	QUANT	7.8.2.7430	Framework Version
INSTRUMENTVERSION	LABEL	2.31	Instrument Version
COMPLIANCEVOLTAGE	IQUANT	0	Compliance Voltage
CURVE1	TABLE
	Pt	T	Vf	Im	Vu	Sig	Ach	IERange	Over	Cycle
	#	s	V vs. Ref.	A	V	V	V	#	bits	#
	0	0.100000	1.349750	1.681931	0.000000	1.350000	0.001710	13	.......	0
	11	1.200000	1.294823	0.437706	0.000000	1.295000	0.000612	13	.......	0
	22	2.300000	1.239852	0.356332	0.000000	1.240000	0.000612	13	.......	0
	33	3.400000	1.184832	0.318625	0.000000	1.185000	0.000618	13	.......	0
	44	4.500000	1.129797	0.327218	0.000000	1.130000	0.000621	13	.......	0
	55	5.600000	1.074777	0.367477	0.000000	1.075000	0.000618	13	.......	0
	66	6.700000	1.019878	0.392542	0.000000	1.020000	0.000616	13	.......	0
	77	7.800000	0.964779	0.355852	0.000000	0.965000	0.000617	13	.......	0
	88	8.900001	0.909874	0.286964	0.000000	0.910000	0.000617	13	.......	0
	99	10	0.854873	0.237764	0.000000	0.855000	0.000618	13	.......	0
	110	11.1	0.799877	0.199968	0.000000	0.800000	0.000622	13	.......	0
	121	12.2	0.744829	0.176020	0.000000	0.745000	0.000617	13	.......	0
	132	13.3	0.689865	0.188987	0.000000	0.690000	0.000620	13	.......	0
	143	14.4	0.634864	0.224560	0.000000	0.635000	0.000617	13	.......	0
	154	15.5	0.579899	0.180883	0.000000	0.580000	0.000618	13	.......	0
	165	16.6	0.524879	-0.062017	0.000000	0.525000	0.000619	13	.......	0
	176	17.7	0.469947	-0.571238	0.000000	0.470000	0.000611	13	.......	0
	187	18.8	0.415007	-1.268742	0.000000	0.415000	0.000614	13	.......	0
	198	19.9	0.359964	-1.778372	0.000000	0.360000	0.000616	13	.......	0
	209	21	0.305042	-1.849340	0.000000	0.305000	0.000618	13	.......	0
	220	22.1	0.249952	-1.741148	0.000000	0.250000	0.000617	13	.......	0
	231	23.2	0.195034	-1.671328	0.000000	0.195000	0.000618	13	.......	0
	242	24.3	0.139979	-1.591989	0.000000	0.140000	0.000614	13	.......	0
	253	25.4	0.085045	-1.527733	0.000000	0.085000	0.000618	13	.......	0
	264	26.5	0.069967	-0.571701	0.000000	0.070000	0.000613	13	.......	0
	275	27.6	0.124876	0.238813	0.000000	0.125000	0.000621	13	.......	0
	286	28.7	0.179860	0.856383	0.000000	0.180000	0.000616	13	.......	0
	297	29.8	0.234807	1.510328	0.000000	0.235000	0.000617	13	.......	0
	308	30.9	0.289817	2.041321	0.000000	0.290000	0.000613	13	.......	0
	319	32	0.344774	2.057752	0.000000	0.345000	0.000615	13	.......	0
	330	33.1	0.399811	2.148176	0.000000	0.400000	0.000615	13	.......	0
	341	34.2	0.454757	2.368896	0.000000	0.455000	0.000617	13	.......	0
	352	35.3	0.509791	2.596552	0.000000	0.510000	0.000622	13	.......	0
	363	36.4	0.564707	2.822226	0.000000	0.565000	0.000617	13	.......	0
	374	37.5	0.619750	3.090519	0.000000	0.620000	0.000617	13	.......	0
	385	38.6	0.674714	3.393135	0.000000	0.675000	0.000614	13	.......	0
	396	39.7	0.729679	3.674182	0.000000	0.730000	0.000619	13	.......	0
	407	40.8	0.784667	3.872719	0.000000	0.785000	0.000619	13	.......	0
	418	41.9	0.839749	3.970200	0.000000	0.840000	0.000617	13	.......	0
	429	43	0.894695	3.990973	0.000000	0.895000	0.000617	13	.......	0
	440	44.1	0.949647	3.964542	0.000000	0.950000	0.000616	13	.......	0
	451	45.2	1.004647	3.922168	0.000000	1.005000	0.000619	13	.......	0
	462	46.3	1.059644	3.939210	0.000000	1.060000	0.000620	13	.......	0
	473	47.4	1.114634	4.075294	0.000000	1.115000	0.000616	13	.......	0
	484	48.5	1.169577	4.296155	0.000000	1.170000	0.000618	13	.......	0
	495	49.6	1.224637	4.532403	0.000000	1.225000	0.000614	13	.......	0
	506	50.7	1.279587	4.740738	0.000000	1.280000	0.000614	13	.......	0
	517	51.8	1.334553	4.927836	0.000000	1.335000	0.000621	13	.......	0
	528	52.9	1.309807	1.520008	0.000000	1.310000	0.000621	13	.......	1
	539	54	1.254751	0.849047	0.000000	1.255000	0.000618	13	.......	1
	550	55.1	1.199862	0.641825	0.000000	1.200000	0.000619	13	.......	1
	561	56.2	1.144788	0.569856	0.000000	1.145000	0.000616	13	.......	1
	572	57.3	1.089775	0.559568	0.000000	1.090000	0.000620	13	.......	1
	583	58.4	1.034801	0.551748	0.000000	1.035000	0.000616	13	.......	1
	594	59.5	0.979865	0.490211	0.000000	0.980000	0.000618	13	.......	1
	605	60.6	0.924801	0.383455	0.000000	0.925000	0.000616	13	.......	1
	616	61.7	0.869862	0.274902	0.000000	0.870000	0.000611	13	.......	1
	627	62.8	0.814867	0.172506	0.000000	0.815000	0.000616	13	.......	1
	638	63.9	0.759873	0.076647	0.000000	0.760000	0.000614	13	.......	1
	649	65	0.704850	-0.003807	0.000000	0.705000	0.000614	13	.......	1
	660	66.1	0.649858	-0.099583	0.000000	0.650000	0.000615	13	.......	1
	671	67.2	0.594883	-0.298497	0.000000	0.595000	0.000616	13	.......	1
	682	68.3	0.539899	-0.670380	0.000000	0.540000	0.000614	13	.......	1
	693	69.4	0.484962	-1.116231	0.000000	0.485000	0.000612	13	.......	1
	704	70.5	0.429943	-1.382139	0.000000	0.430000	0.000613	13	.......	1
	715	71.6	0.375046	-1.359564	0.000000	0.375000	0.000616	13	.......	1
	726	72.7	0.319948	-1.213673	0.000000	0.320000	0.000614	13	.......	1
	737	73.8	0.265014	-1.148208	0.000000	0.265000	0.000609	13	.......	1
	748	74.9	0.209964	-1.231905	0.000000	0.210000	0.000611	13	.......	1
	759	76	0.155013	-1.259481	0.000000	0.155000	0.000621	13	.......	1
	770	77.1	0.100013	-1.286663	0.000000	0.100000	0.000620	13	.......	1
[...]
	1001	100.2	1.154610	4.189268	0.000000	1.155000	0.000615	13	.......	1
	1012	101.3	1.209611	4.433380	0.000000	1.210000	0.000619	13	.......	1
	1023	102.4	1.264622	4.660451	0.000000	1.265000	0.000617	13	.......	1
	1034	103.5	1.319541	4.865694	0.000000	1.320000	0.000612	13	.......	1
	1045	104.6	1.324722	2.046651	0.000000	1.325000	0.000620	13	.......	2
	1056	105.7	1.269805	1.013255	0.000000	1.270000	0.000614	13	.......	2
	1067	106.8	1.214796	0.741672	0.000000	1.215000	0.000612	13	.......	2
	1078	107.9	1.159806	0.644905	0.000000	1.160000	0.000613	13	.......	2
	1089	109	1.104800	0.619556	0.000000	1.105000	0.000617	13	.......	2
	1100	110.1	1.049790	0.615898	0.000000	1.050000	0.000617	13	.......	2
	1111	111.2	0.994803	0.568069	0.000000	0.995000	0.000616	13	.......	2
	1122	112.3	0.939877	0.470863	0.000000	0.940000	0.000616	13	.......	2
	1133	113.4	0.884845	0.364245	0.000000	0.885000	0.000611	13	.......	2
	1144	114.5	0.829887	0.263945	0.000000	0.830000	0.000615	13	.......	2
	1155	115.6	0.774878	0.166477	0.000000	0.775000	0.000616	13	.......	2
	1166	116.7	0.719873	0.079701	0.000000	0.720000	0.000618	13	.......	2
	1177	117.8	0.664852	-0.018014	0.000000	0.665000	0.000618	13	.......	2
	1188	118.9	0.609860	-0.198467	0.000000	0.610000	0.000612	13	.......	2
	1199	120	0.554858	-0.547342	0.000000	0.555000	0.000614	13	.......	2
	1210	121.1	0.499897	-1.003924	0.000000	0.500000	0.000620	13	.......	2
	1221	122.2	0.444948	-1.320082	0.000000	0.445000	0.000622	13	.......	2
	1232	123.3	0.389932	-1.329282	0.000000	0.390000	0.000615	13	.......	2
	1243	124.4	0.334968	-1.169530	0.000000	0.335000	0.000617	13	.......	2
	1254	125.5	0.279976	-1.066607	0.000000	0.280000	0.000618	13	.......	2
	1265	126.6	0.224995	-1.145651	0.000000	0.225000	0.000621	13	.......	2
	1276	127.7	0.169962	-1.182585	0.000000	0.170000	0.000614	13	.......	2
	1287	128.8	0.115001	-1.224678	0.000000	0.115000	0.000616	13	.......	2
	1298	129.9	0.060044	-1.264156	0.000000	0.060000	0.000615	13	.......	2
	1309	131	0.094994	0.115148	0.000000	0.095000	0.000616	13	.......	2
	1320	132.1	0.149830	0.824365	0.000000	0.150000	0.000613	13	.......	2
	1331	133.2	0.204830	1.453851	0.000000	0.205000	0.000619	13	.......	2
	1342	134.3	0.259842	2.177253	0.000000	0.260000	0.000618	13	.......	2
	1353	135.4	0.314772	2.209932	0.000000	0.315000	0.000614	13	.......	2
	1364	136.5	0.369811	2.199127	0.000000	0.370000	0.000612	13	.......	2
	1375	137.6	0.424818	2.295733	0.000000	0.425000	0.000614	13	.......	2
	1386	138.7	0.479830	2.482768	0.000000	0.480000	0.000615	13	.......	2
	1397	139.8	0.534720	2.672905	0.000000	0.535000	0.000616	13	.......	2
	1408	140.9	0.589732	2.889235	0.000000	0.590000	0.000617	13	.......	2
	1419	142	0.644681	3.159132	0.000000	0.645000	0.000617	13	.......	2
	1430	143.1	0.699762	3.448050	0.000000	0.700000	0.000616	13	.......	2
	1441	144.2	0.754661	3.676503	0.000000	0.755000	0.000610	13	.......	2
	1452	145.3	0.809633	3.816161	0.000000	0.810000	0.000617	13	.......	2
	1463	146.4	0.864663	3.869282	0.000000	0.865000	0.000614	13	.......	2
	1474	147.5	0.919732	3.866327	0.000000	0.920000	0.000613	13	.......	2
	1485	148.6	0.974650	3.833906	0.000000	0.975000	0.000610	13	.......	2
	1496	149.7	1.029668	3.816241	0.000000	1.030000	0.000614	13	.......	2
	1507	150.8	1.084664	3.889838	0.000000	1.085000	0.000616	13	.......	2
	1518	151.9	1.139596	4.070265	0.000000	1.140000	0.000616	13	.......	2
	1529	153	1.194630	4.310153	0.000000	1.195000	0.000612	13	.......	2
	1540	154.1	1.249633	4.547576	0.000000	1.250000	0.000616	13	.......	2
	1551	155.2	1.304653	4.760826	0.000000	1.305000	0.000614	13	.......	2
	1559	156	1.344582	4.913768	0.000000	1.345000	0.000613	13	.......	2

File: G21-9800-CV-01 Plot-cv data-240622 055309.DTA
EXPLAIN
TAG	CV
TITLE	LABEL	Cyclic Voltammetry	Test &Identifier
DATE	LABEL	2024-06-22	Date
TIME	LABEL	5:53:09 AM	Time
NOTES	NOTES	1	&Notes...
	GI-CV	FCATS v19.0.1f5
PSTAT	PSTAT	REF3000-42167	Potentiostat
VINIT	POTEN	1.350000E+0	F	Initial &E (V)
VLIMIT1	POTEN	1.350000E+0	F	Scan Limit &1 (V)
VLIMIT2	POTEN	5.000000E-2	F	Scan Limit &2 (V)
VFINAL	POTEN	1.350000E+0	F	Final &E (V)
SCANRATE	QUANT	5.000000E-2	&Scan Rate (V/s)
STEPSIZE	QUANT	2	St&ep Size (V)
CYCLES	IQUANT	3	C&ycles (#)
IMODE	SELECTOR	1	I/E Range &Mode
IRANGE	QUANT	NaN	&Max Current (mA)
AREA	QUANT	5.000000E+1	Electrode &Area (cm^2)
ELECTRODETYPE	SELECTOR	0	Electrode Type
STRIPPING	TOGGLE	F	Used for Stripping
POLARITY	TOGGLE	F	Signal Polarity
CONDIT	TWOPARAM	F	0.00000E+000	0.00000E+000	Conditionin&g	Time(s)	E(V)
DELAY	TWOPARAM	0	0.000000E+0	0.00000E+000	Init. De&lay	Time(s)	Stab.(mV/s)
EQDELAY	QUANT	0.000000E+0	Equil. &Time (s)
IRCOMP	SELECTOR	0	IRCom&p
PFCOR	QUANT	0.00000E+000	PF Corr. (ohm)
SAMPLINGMODE	SELECTOR	Surface	Sampling &Mode
EOC	QUANT	0	Open Circuit (V)
PSTATMODEL	IQUANT	6.000000E+0	Pstat Model
PSTATSECTION	LABEL	REF3000-42167	Pstat Section
PSTATSERIALNO	LABEL	42167	Pstat Serial Number
CTRLMODE	IQUANT	0	Control Mode
IESTAB	IQUANT	2	I/E Stability
CASPEED	IQUANT	2	Control Amp Speed
CONVENTION	IQUANT	1	Current Convention
ICHRANGE	IQUANT	2	Ich Range
ICHRANGEMODE	TOGGLE	F	Ich Auto Range
ICHOFFSETENABLE	TOGGLE	F	Ich Offset Enable
ICHOFFSET	QUANT	0	Ich Offset (V)
ICHFILTER	IQUANT	3	Ich Filter
VCHRANGE	IQUANT	2	Vch Range
VCHRANGEMODE	TOGGLE	F	Vch Auto Range
VCHOFFSETENABLE	TOGGLE	F	Vch Offset Enable
VCHOFFSET	QUANT	0	Vch Offset (V)
VCHFILTER	IQUANT	3	Vch Filter
ACHRANGE	IQUANT	2	Ach Range
ACHOFFSETENABLE	TOGGLE	F	Ach Offset Enable
ACHOFFSET	QUANT	0	Ach Offset (V)
ACHFILTER	IQUANT	1	Ach Filter
IERANGELOWERLIMIT	IQUANT	2	I/E Range Lower Limit
IERANGEMODE	TOGGLE	F	I/E AutoRange
IERANGE	IQUANT	9	I/E Range
POSFEEDENABLE	TOGGLE	F	Positive Feedback IR Comp
POSFEEDRESISTANCE	QUANT	0	Positive Feedback Resistance (ohm)
ACHSELECT	IQUANT	0	Ach Select
CABLEID	IQUANT	14	Cable ID
DCCALDATE	LABEL	N/A	DC Calibration Date
ACCALDATE	LABEL	N/A	AC Calibration Date
THERMOSELECT	IQUANT	1	Thermo Select
FRAMEWORKVERSION	QUANT	7.8.2.7430	Framework Version
INSTRUMENTVERSION	LABEL	2.31	Instrument Version
COMPLIANCEVOLTAGE	IQUANT	0	Compliance Voltage
CURVE1	TABLE
	Pt	T	Vf	Im	Vu	Sig	Ach	IERange	Over	Cycle
	#	s	V vs. Ref.	A	V	V	V	#	bits	#
	0	0.100000	1.349749	1.629065	0.000000	1.350000	0.001699	13	.......	0
	11	1.200000	1.294797	0.707257	0.000000	1.295000	0.000604	13	.......	0
	22	2.300000	1.239843	0.641493	0.000000	1.240000	0.000605	13	.......	0
	33	3.400000	1.184822	0.609041	0.000000	1.185000	0.000611	13	.......	0
	44	4.500000	1.129784	0.607260	0.000000	1.130000	0.000608	13	.......	0
	55	5.600000	1.074752	0.622995	0.000000	1.075000	0.000605	13	.......	0
	66	6.700000	1.019871	0.624417	0.000000	1.020000	0.000606	13	.......	0
	77	7.800000	0.964765	0.598860	0.000000	0.965000	0.000607	13	.......	0
	88	8.900001	0.909866	0.569451	0.000000	0.910000	0.000609	13	.......	0
	99	10	0.854849	0.561922	0.000000	0.855000	0.000610	13	.......	0
	110	11.1	0.799867	0.548925	0.000000	0.800000	0.000610	13	.......	0
	121	12.2	0.744801	0.542768	0.000000	0.745000	0.000608	13	.......	0
	132	13.3	0.689850	0.539692	0.000000	0.690000	0.000606	13	.......	0
	143	14.4	0.634824	0.518017	0.000000	0.635000	0.000604	13	.......	0
	154	15.5	0.579896	0.397297	0.000000	0.580000	0.000611	13	.......	0
	165	16.6	0.524867	0.074911	0.000000	0.525000	0.000609	13	.......	0
	176	17.7	0.469947	-0.509994	0.000000	0.470000	0.000603	13	.......	0
	187	18.8	0.415009	-1.237127	0.000000	0.415000	0.000604	13	.......	0
	198	19.9	0.359954	-1.663512	0.000000	0.360000	0.000601	13	.......	0
	209	21	0.305028	-1.613024	0.000000	0.305000	0.000608	13	.......	0
	220	22.1	0.249942	-1.536085	0.000000	0.250000	0.000608	13	.......	0
	231	23.2	0.195028	-1.520798	0.000000	0.195000	0.000609	13	.......	0
	242	24.3	0.139963	-1.505370	0.000000	0.140000	0.000603	13	.......	0
	253	25.4	0.085038	-1.449450	0.000000	0.085000	0.000600	13	.......	0
	264	26.5	0.069919	-0.036963	0.000000	0.070000	0.000605	13	.......	0
	275	27.6	0.124837	1.157554	0.000000	0.125000	0.000610	13	.......	0
	286	28.7	0.179837	1.929245	0.000000	0.180000	0.000612	13	.......	0
	297	29.8	0.234744	2.518488	0.000000	0.235000	0.000609	13	.......	0
	308	30.9	0.289788	2.787594	0.000000	0.290000	0.000605	13	.......	0
	319	32	0.344754	2.494736	0.000000	0.345000	0.000605	13	.......	0
	330	33.1	0.399806	2.357055	0.000000	0.400000	0.000612	13	.......	0
	341	34.2	0.454759	2.419755	0.000000	0.455000	0.000608	13	.......	0
	352	35.3	0.509788	2.528596	0.000000	0.510000	0.000605	13	.......	0
	363	36.4	0.564713	2.659558	0.000000	0.565000	0.000606	13	.......	0
	374	37.5	0.619764	2.839200	0.000000	0.620000	0.000603	13	.......	0
	385	38.6	0.674728	3.063901	0.000000	0.675000	0.000607	13	.......	0
	396	39.7	0.729698	3.284649	0.000000	0.730000	0.000610	13	.......	0
	407	40.8	0.784684	3.450281	0.000000	0.785000	0.000607	13	.......	0
	418	41.9	0.839781	3.534108	0.000000	0.840000	0.000598	13	.......	0
	429	43	0.894725	3.557102	0.000000	0.895000	0.000603	13	.......	0
	440	44.1	0.949667	3.549038	0.000000	0.950000	0.000603	13	.......	0
	451	45.2	1.004656	3.533401	0.000000	1.005000	0.000609	13	.......	0
	462	46.3	1.059667	3.564250	0.000000	1.060000	0.000609	13	.......	0
	473	47.4	1.114639	3.686167	0.000000	1.115000	0.000606	13	.......	0
	484	48.5	1.169593	3.883924	0.000000	1.170000	0.000603	13	.......	0
	495	49.6	1.224645	4.111617	0.000000	1.225000	0.000602	13	.......	0
	506	50.7	1.279608	4.328664	0.000000	1.280000	0.000601	13	.......	0
	517	51.8	1.334573	4.505936	0.000000	1.335000	0.000600	13	.......	0
	528	52.9	1.309801	1.693443	0.000000	1.310000	0.000608	13	.......	1
	539	54	1.254750	1.100716	0.000000	1.255000	0.000606	13	.......	1
	550	55.1	1.199856	0.922556	0.000000	1.200000	0.000607	13	.......	1
	561	56.2	1.144781	0.858185	0.000000	1.145000	0.000604	13	.......	1
	572	57.3	1.089775	0.833748	0.000000	1.090000	0.000606	13	.......	1
	583	58.4	1.034787	0.808046	0.000000	1.035000	0.000604	13	.......	1
	594	59.5	0.979859	0.754835	0.000000	0.980000	0.000610	13	.......	1
	605	60.6	0.924784	0.683681	0.000000	0.925000	0.000610	13	.......	1
	616	61.7	0.869845	0.614929	0.000000	0.870000	0.000606	13	.......	1
	627	62.8	0.814833	0.545036	0.000000	0.815000	0.000604	13	.......	1
	638	63.9	0.759863	0.469999	0.000000	0.760000	0.000605	13	.......	1
	649	65	0.704817	0.382236	0.000000	0.705000	0.000606	13	.......	1
	660	66.1	0.649850	0.240289	0.000000	0.650000	0.000607	13	.......	1
	671	67.2	0.594867	-0.033941	0.000000	0.595000	0.000606	13	.......	1
	682	68.3	0.539892	-0.470766	0.000000	0.540000	0.000600	13	.......	1
	693	69.4	0.484952	-0.912473	0.000000	0.485000	0.000603	13	.......	1
	704	70.5	0.429929	-1.080018	0.000000	0.430000	0.000601	13	.......	1
	715	71.6	0.375030	-0.928894	0.000000	0.375000	0.000610	13	.......	1
	726	72.7	0.319934	-0.747167	0.000000	0.320000	0.000606	13	.......	1
	737	73.8	0.264998	-0.798622	0.000000	0.265000	0.000605	13	.......	1
	748	74.9	0.209950	-1.023775	0.000000	0.210000	0.000603	13	.......	1
	759	76	0.155006	-1.117433	0.000000	0.155000	0.000608	13	.......	1
	770	77.1	0.100001	-1.179976	0.000000	0.100000	0.000604	13	.......	1
[...]
	1001	100.2	1.154618	3.803793	0.000000	1.155000	0.000599	13	.......	1
	1012	101.3	1.209624	4.036675	0.000000	1.210000	0.000608	13	.......	1
	1023	102.4	1.264630	4.271860	0.000000	1.265000	0.000605	13	.......	1
	1034	103.5	1.319556	4.476564	0.000000	1.320000	0.000601	13	.......	1
	1045	104.6	1.324717	2.163277	0.000000	1.325000	0.000611	13	.......	2
	1056	105.7	1.269795	1.240873	0.000000	1.270000	0.000605	13	.......	2
	1067	106.8	1.214785	1.000532	0.000000	1.215000	0.000603	13	.......	2
	1078	107.9	1.159790	0.913320	0.000000	1.160000	0.000606	13	.......	2
	1089	109	1.104784	0.878211	0.000000	1.105000	0.000612	13	.......	2
	1100	110.1	1.049786	0.854766	0.000000	1.050000	0.000606	13	.......	2
	1111	111.2	0.994783	0.805254	0.000000	0.995000	0.000602	13	.......	2
	1122	112.3	0.939865	0.736033	0.000000	0.940000	0.000604	13	.......	2
	1133	113.4	0.884824	0.666611	0.000000	0.885000	0.000605	13	.......	2
	1144	114.5	0.829876	0.598107	0.000000	0.830000	0.000607	13	.......	2
	1155	115.6	0.774864	0.524649	0.000000	0.775000	0.000611	13	.......	2
	1166	116.7	0.719863	0.440459	0.000000	0.720000	0.000610	13	.......	2
	1177	117.8	0.664835	0.311962	0.000000	0.665000	0.000605	13	.......	2
	1188	118.9	0.609847	0.069487	0.000000	0.610000	0.000606	13	.......	2
	1199	120	0.554838	-0.337883	0.000000	0.555000	0.000601	13	.......	2
	1210	121.1	0.499895	-0.802914	0.000000	0.500000	0.000609	13	.......	2
	1221	122.2	0.444938	-1.043728	0.000000	0.445000	0.000609	13	.......	2
	1232	123.3	0.389917	-0.933509	0.000000	0.390000	0.000605	13	.......	2
	1243	124.4	0.334937	-0.710525	0.000000	0.335000	0.000604	13	.......	2
	1254	125.5	0.279956	-0.672052	0.000000	0.280000	0.000607	13	.......	2
	1265	126.6	0.224982	-0.938305	0.000000	0.225000	0.000610	13	.......	2
	1276	127.7	0.169950	-1.006978	0.000000	0.170000	0.000606	13	.......	2
	1287	128.8	0.114993	-1.118032	0.000000	0.115000	0.000608	13	.......	2
	1298	129.9	0.060040	-1.207945	0.000000	0.060000	0.000604	13	.......	2
	1309	131	0.094949	0.926963	0.000000	0.095000	0.000603	13	.......	2
	1320	132.1	0.149799	1.845149	0.000000	0.150000	0.000604	13	.......	2
	1331	133.2	0.204781	2.377328	0.000000	0.205000	0.000616	13	.......	2
	1342	134.3	0.259818	2.991261	0.000000	0.260000	0.000608	13	.......	2
	1353	135.4	0.314750	2.642394	0.000000	0.315000	0.000604	13	.......	2
	1364	136.5	0.369798	2.452371	0.000000	0.370000	0.000605	13	.......	2
	1375	137.6	0.424802	2.407205	0.000000	0.425000	0.000609	13	.......	2
	1386	138.7	0.479830	2.484877	0.000000	0.480000	0.000608	13	.......	2
	1397	139.8	0.534725	2.582916	0.000000	0.535000	0.000609	13	.......	2
	1408	140.9	0.589738	2.715080	0.000000	0.590000	0.000609	13	.......	2
	1419	142	0.644688	2.903747	0.000000	0.645000	0.000605	13	.......	2
	1430	143.1	0.699772	3.125898	0.000000	0.700000	0.000604	13	.......	2
	1441	144.2	0.754675	3.317396	0.000000	0.755000	0.000604	13	.......	2
	1452	145.3	0.809648	3.439663	0.000000	0.810000	0.000611	13	.......	2
	1463	146.4	0.864673	3.487955	0.000000	0.865000	0.000609	13	.......	2
	1474	147.5	0.919749	3.494603	0.000000	0.920000	0.000604	13	.......	2
	1485	148.6	0.974658	3.481918	0.000000	0.975000	0.000603	13	.......	2
	1496	149.7	1.029675	3.481495	0.000000	1.030000	0.000608	13	.......	2
	1507	150.8	1.084678	3.551892	0.000000	1.085000	0.000609	13	.......	2
	1518	151.9	1.139612	3.717464	0.000000	1.140000	0.000607	13	.......	2
	1529	153	1.194636	3.947065	0.000000	1.195000	0.000606	13	.......	2
	1540	154.1	1.249638	4.191365	0.000000	1.250000	0.000609	13	.......	2
	1551	155.2	1.304657	4.414513	0.000000	1.305000	0.000607	13	.......	2
	1559	156	1.344582	4.556360	0.000000	1.345000	0.000610	13	.......	2