Folder: ELY-TimeSeries/LSTM/50um/1079714-2/Ambient Pressure Run 2

File: G21-9800-CV-01 Plot-cv data-240624 192311.DTA
EXPLAIN
TAG	CV
TITLE	LABEL	Cyclic Voltammetry	Test &Identifier
DATE	LABEL	2024-06-24	Date
TIME	LABEL	7:23:11 PM	Time
NOTES	NOTES	1	&Notes...
	GI-CV	FCATS v19.0.1f5
PSTAT	PSTAT	REF3000-42167	Potentiostat
VINIT	POTEN	1.350000E+0	F	Initial &E (V)
VLIMIT1	POTEN	1.350000E+0	F	Scan Limit &1 (V)
VLIMIT2	POTEN	5.000000E-2	F	Scan Limit &2 (V)
VFINAL	POTEN	1.350000E+0	F	Final &E (V)
SCANRATE	QUANT	5.000000E-2	&Scan Rate (V/s)
STEPSIZE	QUANT	2	St&ep Size (V)
CYCLES	IQUANT	3	C&ycles (#)
IMODE	SELECTOR	1	I/E Range &Mode
IRANGE	QUANT	NaN	&Max Current (mA)
AREA	QUANT	5.000000E+1	Electrode &Area (cm^2)
ELECTRODETYPE	SELECTOR	0	Electrode Type
STRIPPING	TOGGLE	F	Used for Stripping
POLARITY	TOGGLE	F	Signal Polarity
CONDIT	TWOPARAM	F	0.00000E+000	0.00000E+000	Conditionin&g	Time(s)	E(V)
DELAY	TWOPARAM	0	0.000000E+0	0.00000E+000	Init. De&lay	Time(s)	Stab.(mV/s)
EQDELAY	QUANT	0.000000E+0	Equil. &Time (s)
IRCOMP	SELECTOR	0	IRCom&p
PFCOR	QUANT	0.00000E+000	PF Corr. (ohm)
SAMPLINGMODE	SELECTOR	Surface	Sampling &Mode
EOC	QUANT	0	Open Circuit (V)
PSTATMODEL	IQUANT	6.000000E+0	Pstat Model
PSTATSECTION	LABEL	REF3000-42167	Pstat Section
PSTATSERIALNO	LABEL	42167	Pstat Serial Number
CTRLMODE	IQUANT	0	Control Mode
IESTAB	IQUANT	2	I/E Stability
CASPEED	IQUANT	2	Control Amp Speed
CONVENTION	IQUANT	1	Current Convention
ICHRANGE	IQUANT	2	Ich Range
ICHRANGEMODE	TOGGLE	F	Ich Auto Range
ICHOFFSETENABLE	TOGGLE	F	Ich Offset Enable
ICHOFFSET	QUANT	0	Ich Offset (V)
ICHFILTER	IQUANT	3	Ich Filter
VCHRANGE	IQUANT	2	Vch Range
VCHRANGEMODE	TOGGLE	F	Vch Auto Range
VCHOFFSETENABLE	TOGGLE	F	Vch Offset Enable
VCHOFFSET	QUANT	0	Vch Offset (V)
VCHFILTER	IQUANT	3	Vch Filter
ACHRANGE	IQUANT	2	Ach Range
ACHOFFSETENABLE	TOGGLE	F	Ach Offset Enable
ACHOFFSET	QUANT	0	Ach Offset (V)
ACHFILTER	IQUANT	1	Ach Filter
IERANGELOWERLIMIT	IQUANT	2	I/E Range Lower Limit
IERANGEMODE	TOGGLE	F	I/E AutoRange
IERANGE	IQUANT	9	I/E Range
POSFEEDENABLE	TOGGLE	F	Positive Feedback IR Comp
POSFEEDRESISTANCE	QUANT	0	Positive Feedback Resistance (ohm)
ACHSELECT	IQUANT	0	Ach Select
CABLEID	IQUANT	14	Cable ID
DCCALDATE	LABEL	N/A	DC Calibration Date
ACCALDATE	LABEL	N/A	AC Calibration Date
THERMOSELECT	IQUANT	1	Thermo Select
FRAMEWORKVERSION	QUANT	7.8.2.7430	Framework Version
INSTRUMENTVERSION	LABEL	2.31	Instrument Version
COMPLIANCEVOLTAGE	IQUANT	0	Compliance Voltage
CURVE1	TABLE
	Pt	T	Vf	Im	Vu	Sig	Ach	IERange	Over	Cycle
	#	s	V vs. Ref.	A	V	V	V	#	bits	#
	0	0.100000	1.349814	0.061731	0.000000	1.350000	0.001708	13	.......	0
	11	1.200000	1.294961	-0.997402	0.000000	1.295000	0.000616	13	.......	0
	22	2.300000	1.239906	-0.960887	0.000000	1.240000	0.000617	13	.......	0
	33	3.400000	1.184917	-0.911382	0.000000	1.185000	0.000619	13	.......	0
	44	4.500000	1.129868	-0.933165	0.000000	1.130000	0.000616	13	.......	0
	55	5.600000	1.074864	-0.899747	0.000000	1.075000	0.000618	13	.......	0
	66	6.700000	1.019911	-0.884501	0.000000	1.020000	0.000615	13	.......	0
	77	7.800000	0.964853	-0.896321	0.000000	0.965000	0.000616	13	.......	0
	88	8.900001	0.909899	-0.910067	0.000000	0.910000	0.000619	13	.......	0
	99	10	0.854939	-0.946484	0.000000	0.855000	0.000616	13	.......	0
	110	11.1	0.799916	-0.997926	0.000000	0.800000	0.000613	13	.......	0
	121	12.2	0.744908	-0.980386	0.000000	0.745000	0.000612	13	.......	0
	132	13.3	0.689932	-0.962145	0.000000	0.690000	0.000609	13	.......	0
	143	14.4	0.634968	-0.951529	0.000000	0.635000	0.000615	13	.......	0
	154	15.5	0.579934	-0.869681	0.000000	0.580000	0.000615	13	.......	0
	165	16.6	0.524922	-0.830434	0.000000	0.525000	0.000619	13	.......	0
	176	17.7	0.469979	-0.883594	0.000000	0.470000	0.000613	13	.......	0
	187	18.8	0.415011	-1.014537	0.000000	0.415000	0.000612	13	.......	0
	198	19.9	0.359960	-1.285588	0.000000	0.360000	0.000614	13	.......	0
	209	21	0.305042	-1.756148	0.000000	0.305000	0.000617	13	.......	0
	220	22.1	0.250013	-2.322374	0.000000	0.250000	0.000617	13	.......	0
	231	23.2	0.195073	-2.712566	0.000000	0.195000	0.000617	13	.......	0
	242	24.3	0.140052	-2.945026	0.000000	0.140000	0.000614	13	.......	0
	253	25.4	0.085110	-3.086188	0.000000	0.085000	0.000607	13	.......	0
	264	26.5	0.069988	-0.580805	0.000000	0.070000	0.000614	13	.......	0
	275	27.6	0.124881	0.426593	0.000000	0.125000	0.000618	13	.......	0
	286	28.7	0.179874	0.620553	0.000000	0.180000	0.000618	13	.......	0
	297	29.8	0.234894	0.348030	0.000000	0.235000	0.000611	13	.......	0
	308	30.9	0.289899	0.302732	0.000000	0.290000	0.000610	13	.......	0
	319	32	0.344873	0.374783	0.000000	0.345000	0.000614	13	.......	0
	330	33.1	0.399854	0.521127	0.000000	0.400000	0.000616	13	.......	0
	341	34.2	0.454901	0.651181	0.000000	0.455000	0.000617	13	.......	0
	352	35.3	0.509844	0.787756	0.000000	0.510000	0.000613	13	.......	0
	363	36.4	0.564819	0.948959	0.000000	0.565000	0.000611	13	.......	0
	374	37.5	0.619832	1.119747	0.000000	0.620000	0.000613	13	.......	0
	385	38.6	0.674829	1.308437	0.000000	0.675000	0.000615	13	.......	0
	396	39.7	0.729784	1.432794	0.000000	0.730000	0.000618	13	.......	0
	407	40.8	0.784816	1.499786	0.000000	0.785000	0.000621	13	.......	0
	418	41.9	0.839848	1.539825	0.000000	0.840000	0.000617	13	.......	0
	429	43	0.894873	1.528076	0.000000	0.895000	0.000616	13	.......	0
	440	44.1	0.949771	1.497735	0.000000	0.950000	0.000616	13	.......	0
	451	45.2	1.004764	1.499766	0.000000	1.005000	0.000616	13	.......	0
	462	46.3	1.059779	1.592564	0.000000	1.060000	0.000611	13	.......	0
	473	47.4	1.114704	1.725757	0.000000	1.115000	0.000612	13	.......	0
	484	48.5	1.169690	1.837464	0.000000	1.170000	0.000616	13	.......	0
	495	49.6	1.224736	1.956291	0.000000	1.225000	0.000613	13	.......	0
	506	50.7	1.279773	2.087528	0.000000	1.280000	0.000617	13	.......	0
	517	51.8	1.334678	2.248458	0.000000	1.335000	0.000610	13	.......	0
	528	52.9	1.309888	-0.620628	0.000000	1.310000	0.000613	13	.......	1
	539	54	1.254867	-0.839684	0.000000	1.255000	0.000612	13	.......	1
	550	55.1	1.199910	-0.862430	0.000000	1.200000	0.000614	13	.......	1
	561	56.2	1.144904	-0.866841	0.000000	1.145000	0.000612	13	.......	1
	572	57.3	1.089854	-0.841721	0.000000	1.090000	0.000608	13	.......	1
	583	58.4	1.034888	-0.842219	0.000000	1.035000	0.000611	13	.......	1
	594	59.5	0.979909	-0.839032	0.000000	0.980000	0.000615	13	.......	1
	605	60.6	0.924879	-0.873019	0.000000	0.925000	0.000612	13	.......	1
	616	61.7	0.869902	-0.946231	0.000000	0.870000	0.000610	13	.......	1
	627	62.8	0.814965	-0.978988	0.000000	0.815000	0.000614	13	.......	1
	638	63.9	0.759903	-1.039923	0.000000	0.760000	0.000611	13	.......	1
	649	65	0.704957	-1.031822	0.000000	0.705000	0.000617	13	.......	1
	660	66.1	0.649905	-1.045422	0.000000	0.650000	0.000610	13	.......	1
	671	67.2	0.594943	-1.060630	0.000000	0.595000	0.000616	13	.......	1
	682	68.3	0.539916	-1.145424	0.000000	0.540000	0.000608	13	.......	1
	693	69.4	0.484988	-1.323180	0.000000	0.485000	0.000612	13	.......	1
	704	70.5	0.429971	-1.678520	0.000000	0.430000	0.000611	13	.......	1
	715	71.6	0.375075	-2.061577	0.000000	0.375000	0.000620	13	.......	1
	726	72.7	0.320006	-2.215317	0.000000	0.320000	0.000619	13	.......	1
	737	73.8	0.265063	-2.150874	0.000000	0.265000	0.000610	13	.......	1
	748	74.9	0.210033	-2.196961	0.000000	0.210000	0.000612	13	.......	1
	759	76	0.155067	-2.393433	0.000000	0.155000	0.000611	13	.......	1
	770	77.1	0.100107	-2.504358	0.000000	0.100000	0.000616	13	.......	1
	781	78.2	0.055039	-0.820463	0.000000	0.055000	0.000616	13	.......	1
	792	79.3	0.109859	0.853094	0.000000	0.110000	0.000612	13	.......	1
	803	80.4	0.164885	0.978390	0.000000	0.165000	0.000615	13	.......	1
	814	81.5	0.219888	0.862031	0.000000	0.220000	0.000611	13	.......	1
	825	82.6	0.274948	0.553410	0.000000	0.275000	0.000610	13	.......	1
	836	83.7	0.329860	0.426442	0.000000	0.330000	0.000613	13	.......	1
	847	84.8	0.384876	0.541143	0.000000	0.385000	0.000615	13	.......	1
	858	85.9	0.439865	0.629159	0.000000	0.440000	0.000610	13	.......	1
	869	87	0.494902	0.723008	0.000000	0.495000	0.000613	13	.......	1
	880	88.1	0.549827	0.865930	0.000000	0.550000	0.000610	13	.......	1
	891	89.2	0.604780	1.047487	0.000000	0.605000	0.000615	13	.......	1
	902	90.3	0.659830	1.222030	0.000000	0.660000	0.000615	13	.......	1
	913	91.4	0.714823	1.394671	0.000000	0.715000	0.000611	13	.......	1
	924	92.5	0.769788	1.447238	0.000000	0.770000	0.000612	13	.......	1
	935	93.6	0.824812	1.450633	0.000000	0.825000	0.000610	13	.......	1
	946	94.7	0.879836	1.492673	0.000000	0.880000	0.000615	13	.......	1
	957	95.8	0.934703	1.467372	0.000000	0.935000	0.000613	13	.......	1
	968	96.9	0.989800	1.488575	0.000000	0.990000	0.000611	13	.......	1
	979	98	1.044768	1.590573	0.000000	1.045000	0.000611	13	.......	1
	990	99.1	1.099822	1.761180	0.000000	1.100000	0.000611	13	.......	1
	1001	100.2	1.154675	1.939860	0.000000	1.155000	0.000611	13	.......	1
	1012	101.3	1.209726	2.095400	0.000000	1.210000	0.000620	13	.......	1
	1023	102.4	1.264717	2.257485	0.000000	1.265000	0.000616	13	.......	1
	1034	103.5	1.319745	2.411702	0.000000	1.320000	0.000613	13	.......	1
	1045	104.6	1.324838	-0.265135	0.000000	1.325000	0.000614	13	.......	2
	1056	105.7	1.269862	-0.721166	0.000000	1.270000	0.000609	13	.......	2
	1067	106.8	1.214896	-0.781675	0.000000	1.215000	0.000611	13	.......	2
	1078	107.9	1.159880	-0.806583	0.000000	1.160000	0.000612	13	.......	2
	1089	109	1.104904	-0.807586	0.000000	1.105000	0.000615	13	.......	2
	1100	110.1	1.049873	-0.823915	0.000000	1.050000	0.000616	13	.......	2
	1111	111.2	0.994922	-0.817760	0.000000	0.995000	0.000617	13	.......	2
	1122	112.3	0.939926	-0.850658	0.000000	0.940000	0.000607	13	.......	2
	1133	113.4	0.884920	-0.880846	0.000000	0.885000	0.000615	13	.......	2
	1144	114.5	0.829927	-0.940978	0.000000	0.830000	0.000617	13	.......	2
	1155	115.6	0.774958	-0.973557	0.000000	0.775000	0.000616	13	.......	2
	1166	116.7	0.719912	-1.001378	0.000000	0.720000	0.000613	13	.......	2
	1177	117.8	0.664933	-1.017005	0.000000	0.665000	0.000613	13	.......	2
	1188	118.9	0.609908	-1.019586	0.000000	0.610000	0.000605	13	.......	2
	1199	120	0.554932	-1.123450	0.000000	0.555000	0.000610	13	.......	2
	1210	121.1	0.499920	-1.366112	0.000000	0.500000	0.000611	13	.......	2
	1221	122.2	0.444987	-1.809607	0.000000	0.445000	0.000610	13	.......	2
	1232	123.3	0.390000	-2.277152	0.000000	0.390000	0.000609	13	.......	2
	1243	124.4	0.335051	-2.424696	0.000000	0.335000	0.000607	13	.......	2
	1254	125.5	0.280055	-2.203548	0.000000	0.280000	0.000607	13	.......	2
	1265	126.6	0.225036	-2.044652	0.000000	0.225000	0.000612	13	.......	2
	1276	127.7	0.170070	-2.275734	0.000000	0.170000	0.000614	13	.......	2
	1287	128.8	0.115056	-2.263009	0.000000	0.115000	0.000612	13	.......	2
	1298	129.9	0.060111	-2.329180	0.000000	0.060000	0.000610	13	.......	2
	1309	131	0.094970	0.955768	0.000000	0.095000	0.000614	13	.......	2
	1320	132.1	0.149829	1.087696	0.000000	0.150000	0.000612	13	.......	2
	1331	133.2	0.204847	1.447362	0.000000	0.205000	0.000619	13	.......	2
	1342	134.3	0.259896	0.715345	0.000000	0.260000	0.000617	13	.......	2
	1353	135.4	0.314881	0.554529	0.000000	0.315000	0.000612	13	.......	2
	1364	136.5	0.369890	0.559394	0.000000	0.370000	0.000613	13	.......	2
	1375	137.6	0.424928	0.638825	0.000000	0.425000	0.000615	13	.......	2
	1386	138.7	0.479892	0.713862	0.000000	0.480000	0.000619	13	.......	2
	1397	139.8	0.534863	0.805844	0.000000	0.535000	0.000615	13	.......	2
	1408	140.9	0.589806	1.004142	0.000000	0.590000	0.000618	13	.......	2
	1419	142	0.644790	1.154802	0.000000	0.645000	0.000608	13	.......	2
	1430	143.1	0.699842	1.317737	0.000000	0.700000	0.000607	13	.......	2
	1441	144.2	0.754772	1.421654	0.000000	0.755000	0.000611	13	.......	2
	1452	145.3	0.809750	1.438030	0.000000	0.810000	0.000616	13	.......	2
	1463	146.4	0.864796	1.442191	0.000000	0.865000	0.000616	13	.......	2
	1474	147.5	0.919830	1.441488	0.000000	0.920000	0.000612	13	.......	2
	1485	148.6	0.974787	1.460292	0.000000	0.975000	0.000609	13	.......	2
	1496	149.7	1.029778	1.549150	0.000000	1.030000	0.000607	13	.......	2
	1507	150.8	1.084779	1.713751	0.000000	1.085000	0.000616	13	.......	2
	1518	151.9	1.139753	1.936773	0.000000	1.140000	0.000612	13	.......	2
	1529	153	1.194713	2.115620	0.000000	1.195000	0.000608	13	.......	2
	1540	154.1	1.249736	2.275376	0.000000	1.250000	0.000612	13	.......	2
	1551	155.2	1.304758	2.452067	0.000000	1.305000	0.000612	13	.......	2
	1559	156	1.344637	2.625708	0.000000	1.345000	0.000617	13	.......	2